{"resourceType":"RiskAssessment","id":"breastcancer-risk","text":{"status":"additional","div":"\u003cdiv xmlns\u003d\"http://www.w3.org/1999/xhtml\"\u003e\n      \u003ctable\u003e\n        \u003ctr\u003e\n          \u003ctd colspan\u003d\"2\"\u003e\n            \u003ch1\u003eInformation about your risk score:\u003c/h1\u003e\n          \u003c/td\u003e\n        \u003c/tr\u003e\n        \u003ctr\u003e\n          \u003ctd\u003e\n            \u003cstrong\u003eBirthdate:\u003c/strong\u003e\n          \u003c/td\u003e\n          \u003ctd\u003e1981-01-01\u003c/td\u003e\n        \u003c/tr\u003e\n        \u003ctr\u003e\n          \u003ctd\u003e\n            \u003cstrong\u003eGender:\u003c/strong\u003e\n          \u003c/td\u003e\n          \u003ctd\u003efemale\u003c/td\u003e\n        \u003c/tr\u003e\n        \u003ctr\u003e\n          \u003ctd\u003e\n            \u003cstrong\u003eEthnicity:\u003c/strong\u003e\n          \u003c/td\u003e\n          \u003ctd\u003eUnknown / Not Reported\u003c/td\u003e\n        \u003c/tr\u003e\n      \u003c/table\u003e\n    \u003c/div\u003e"},"identifier":[{"use":"official","system":"http://example.org","value":"risk-assessment-breastcancer1"}],"status":"final","code":{"coding":[{"system":"http://browser.ihtsdotools.org/","code":"709510001","display":"Assessment of risk for disease (procedure)"}]},"subject":{"reference":"Patient/example"},"performer":{"reference":"Practitioner/example"},"basis":[{"reference":"Observation/example-genetics-brcapat"}],"prediction":[{"outcome":{"text":"Unknown risk of developing breast cancer"}}],"note":[{"text":"This risk assessment is based on BRCA1 and BRCA2 genetic mutation test"}]}
{"resourceType":"RiskAssessment","id":"cardiac","text":{"status":"additional","div":"\u003cdiv xmlns\u003d\"http://www.w3.org/1999/xhtml\"\u003e\n      \u003ctable\u003e\n        \u003ctr\u003e\n          \u003ctd colspan\u003d\"2\"\u003e\n            \u003ch1\u003eInformation about your risk score:\u003c/h1\u003e\n          \u003c/td\u003e\n        \u003c/tr\u003e\n        \u003ctr\u003e\n          \u003ctd\u003e\n            \u003cstrong\u003eAge:\u003c/strong\u003e\n          \u003c/td\u003e\n          \u003ctd\u003e39\u003c/td\u003e\n        \u003c/tr\u003e\n        \u003ctr\u003e\n          \u003ctd\u003e\n            \u003cstrong\u003eGender:\u003c/strong\u003e\n          \u003c/td\u003e\n          \u003ctd\u003emale\u003c/td\u003e\n        \u003c/tr\u003e\n        \u003ctr\u003e\n          \u003ctd\u003e\n            \u003cstrong\u003eTotal Cholesterol:\u003c/strong\u003e\n          \u003c/td\u003e\n          \u003ctd\u003e244 mg/dL\u003c/td\u003e\n        \u003c/tr\u003e\n        \u003ctr\u003e\n          \u003ctd\u003e\n            \u003cstrong\u003eHDL Cholesterol:\u003c/strong\u003e\n          \u003c/td\u003e\n          \u003ctd\u003e50 mg/dL\n          \u003c/td\u003e\n        \u003c/tr\u003e\n        \u003ctr\u003e\n          \u003ctd\u003e\n            \u003cstrong\u003eSmoker:\u003c/strong\u003e\n          \u003c/td\u003e\n          \u003ctd\u003eNo\u003c/td\u003e\n        \u003c/tr\u003e\n        \u003ctr\u003e\n          \u003ctd\u003e\n            \u003cstrong\u003eSystolic Blood Pressure:\u003c/strong\u003e\n          \u003c/td\u003e\n          \u003ctd\u003e107 mm/Hg\u003c/td\u003e\n        \u003c/tr\u003e\n        \u003ctr\u003e\n          \u003ctd\u003e\n            \u003cstrong\u003eOn medication for HBP:\u003c/strong\u003e\n          \u003c/td\u003e\n          \u003ctd\u003eNo\u003c/td\u003e\n        \u003c/tr\u003e\n        \u003ctr\u003e\n          \u003ctd valign\u003d\"top\"\u003e\n            \u003cb\u003eRisk Score*\u003c/b\u003e\n          \u003c/td\u003e\n          \u003ctd\u003e2%\u003cbr/\u003eMeans 2 of 100 people with this level of risk will have a heart attack in the next 10 years.\u003c/td\u003e\n        \u003c/tr\u003e\n        \u003ctr\u003e\n          \u003ctd colspan\u003d\"2\"\u003e* Your risk score was calculated using an equation.  Other NCEP products, such as printed ATP III materials, use a point system to determine a risk score that is close to the equation score.\u003c/td\u003e\n        \u003c/tr\u003e\n        \u003ctr\u003e\n          \u003ctd colspan\u003d\"2\"\u003eTo find out what your risk score means and how to lower your risk for a heart attack, go to\u003cbr/\u003e\n            \u003ca href\u003d\"http://www.nhlbi.nih.gov/health/public/heart/chol/hbc_what.htm\"\u003e\u0026quot;High Blood Cholesterol—What You Need to Know\u0026quot;\u003c/a\u003e.\u003cbr/\u003e\n            \u003ca href\u003d\"http://www.nhlbi.nih.gov/health/public/heart/chol/chol_tlc.htm\"\u003eYour Guide to Lowering Cholesterol with Therapeutic Lifestyle Changes (TLC)\u003c/a\u003e\u003cbr/\u003e\n            \u003ca href\u003d\"http://www.nhlbi.nih.gov/health/public/heart/other/hhw/index.htm\"\u003eThe Healthy Heart Handbook for Women\u003c/a\u003e\n          \u003c/td\u003e\n        \u003c/tr\u003e\n      \u003c/table\u003e\n    \u003c/div\u003e"},"identifier":[{"use":"official","system":"http://example.org","value":"risk-assessment-cardiac"}],"status":"final","subject":{"reference":"Patient/pat2"},"encounter":{"reference":"Encounter/example"},"occurrenceDateTime":"2014-07-19T16:04:00Z","performer":{"display":"http://cvdrisk.nhlbi.nih.gov/#cholesterol"},"basis":[{"reference":"Patient/pat2"},{"reference":"DiagnosticReport/lipids"},{"reference":"Observation/blood-pressure"}],"prediction":[{"outcome":{"text":"Heart Attack"},"probabilityDecimal":0.02,"whenRange":{"low":{"value":39,"unit":"years","system":"http://unitsofmeasure.org","code":"a"},"high":{"value":49,"unit":"years","system":"http://unitsofmeasure.org","code":"a"}}}]}
{"resourceType":"RiskAssessment","id":"population","text":{"status":"generated","div":"\u003cdiv xmlns\u003d\"http://www.w3.org/1999/xhtml\"\u003e\n      \u003cp\u003eTodo - e.g. probable number of infections in a given region over a time period for a given disease based on vaccination rates and other factors\u003c/p\u003e\n    \u003c/div\u003e"},"contained":[{"resourceType":"Group","id":"group1","type":"person","actual":false}],"status":"final","subject":{"reference":"#group1"}}
{"resourceType":"RiskAssessment","id":"prognosis","text":{"status":"additional","div":"\u003cdiv xmlns\u003d\"http://www.w3.org/1999/xhtml\"\u003e\n      \u003cp\u003eModerate risk of permanent weakness of the left arm, but otherwise no permanent disability\u003c/p\u003e\n    \u003c/div\u003e"},"status":"final","subject":{"reference":"Patient/example"},"occurrenceDateTime":"2010-11-22","condition":{"reference":"Condition/stroke","display":"Ischemic Stroke"},"prediction":[{"outcome":{"coding":[{"system":"http://snomed.info/sct","code":"249943000:363698007\u003d72098002,260868000\u003d6934004"}],"text":"permanent weakness of the left arm"},"qualitativeRisk":{"coding":[{"system":"http://terminology.hl7.org/CodeSystem/risk-probability","code":"moderate","display":"moderate likelihood"}]}}]}
{"resourceType":"RiskAssessment","id":"genetic","text":{"status":"generated","div":"\u003cdiv xmlns\u003d\"http://www.w3.org/1999/xhtml\"\u003e\n      \u003cp\u003eProbability of developing breast cancer before the age indicated:\u003c/p\u003e\n      \u003ctable\u003e\n        \u003cthead\u003e\n          \u003ctr\u003e\n            \u003cth\u003eAge\u003c/th\u003e\n            \u003cth\u003eProbability (%)\u003c/th\u003e\n          \u003c/tr\u003e\n        \u003c/thead\u003e\n        \u003ctbody\u003e\n          \u003ctr\u003e\n            \u003ctd\u003ecurrent-53\u003c/td\u003e\n            \u003ctd\u003e0.0168\u003c/td\u003e\n          \u003c/tr\u003e\n          \u003ctr\u003e\n            \u003ctd\u003e54-57\u003c/td\u003e\n            \u003ctd\u003e0.0368\u003c/td\u003e\n          \u003c/tr\u003e\n          \u003ctr\u003e\n            \u003ctd\u003e58-62\u003c/td\u003e\n            \u003ctd\u003e0.0594\u003c/td\u003e\n          \u003c/tr\u003e\n          \u003ctr\u003e\n            \u003ctd\u003e63-67\u003c/td\u003e\n            \u003ctd\u003e0.0838\u003c/td\u003e\n          \u003c/tr\u003e\n          \u003ctr\u003e\n            \u003ctd\u003e68-72\u003c/td\u003e\n            \u003ctd\u003e0.1089\u003c/td\u003e\n          \u003c/tr\u003e\n          \u003ctr\u003e\n            \u003ctd\u003e73-77\u003c/td\u003e\n            \u003ctd\u003e0.1327\u003c/td\u003e\n          \u003c/tr\u003e\n          \u003ctr\u003e\n            \u003ctd\u003e78-82\u003c/td\u003e\n            \u003ctd\u003e0.1530\u003c/td\u003e\n          \u003c/tr\u003e\n          \u003ctr\u003e\n            \u003ctd\u003e83-87\u003c/td\u003e\n            \u003ctd\u003e0.1663\u003c/td\u003e\n          \u003c/tr\u003e\n        \u003c/tbody\u003e\n      \u003c/table\u003e\n    \u003c/div\u003e"},"status":"final","method":{"coding":[{"code":"BRCAPRO"}]},"subject":{"reference":"Patient/b248b1b2-1686-4b94-9936-37d7a5f94b51"},"occurrenceDateTime":"2006-01-13T23:01:00Z","basis":[{"reference":"List/prognosis"}],"prediction":[{"outcome":{"text":"Breast Cancer"},"probabilityDecimal":0.000168,"whenRange":{"high":{"value":53,"unit":"years","system":"http://unitsofmeasure.org","code":"a"}}},{"outcome":{"text":"Breast Cancer"},"probabilityDecimal":0.000368,"whenRange":{"low":{"value":54,"unit":"years","system":"http://unitsofmeasure.org","code":"a"},"high":{"value":57,"unit":"years","system":"http://unitsofmeasure.org","code":"a"}}},{"outcome":{"text":"Breast Cancer"},"probabilityDecimal":0.000594,"whenRange":{"low":{"value":58,"unit":"years","system":"http://unitsofmeasure.org","code":"a"},"high":{"value":62,"unit":"years","system":"http://unitsofmeasure.org","code":"a"}}},{"outcome":{"text":"Breast Cancer"},"probabilityDecimal":0.000838,"whenRange":{"low":{"value":63,"unit":"years","system":"http://unitsofmeasure.org","code":"a"},"high":{"value":67,"unit":"years","system":"http://unitsofmeasure.org","code":"a"}}},{"outcome":{"text":"Breast Cancer"},"probabilityDecimal":0.001089,"whenRange":{"low":{"value":68,"unit":"years","system":"http://unitsofmeasure.org","code":"a"},"high":{"value":72,"unit":"years","system":"http://unitsofmeasure.org","code":"a"}}},{"outcome":{"text":"Breast Cancer"},"probabilityDecimal":0.001327,"whenRange":{"low":{"value":73,"unit":"years","system":"http://unitsofmeasure.org","code":"a"},"high":{"value":77,"unit":"years","system":"http://unitsofmeasure.org","code":"a"}}},{"outcome":{"text":"Breast Cancer"},"probabilityDecimal":0.001530,"whenRange":{"low":{"value":78,"unit":"years","system":"http://unitsofmeasure.org","code":"a"},"high":{"value":82,"unit":"years","system":"http://unitsofmeasure.org","code":"a"}}},{"outcome":{"text":"Breast Cancer"},"probabilityDecimal":0.001663,"whenRange":{"low":{"value":83,"unit":"years","system":"http://unitsofmeasure.org","code":"a"},"high":{"value":88,"unit":"years","system":"http://unitsofmeasure.org","code":"a"}}}],"note":[{"text":"High degree of certainty"}]}
{"resourceType":"RiskAssessment","id":"riskexample","text":{"status":"generated","div":"\u003cdiv xmlns\u003d\"http://www.w3.org/1999/xhtml\"\u003eRisk assessment for reference only\u003c/div\u003e"},"identifier":[{"use":"official","system":"http://example.org","value":"risk-assessment-breastcancer1"}],"basedOn":{"reference":"ImmunizationRecommendation/example"},"parent":{"reference":"DiagnosticReport/example"},"status":"final","code":{"coding":[{"system":"http://browser.ihtsdotools.org/","code":"709510001","display":"Assessment of risk for disease (procedure)"}]},"subject":{"reference":"Patient/example"},"encounter":{"reference":"Encounter/example","display":"Encounter with patient @example"},"occurrenceDateTime":"2017-10-10","condition":{"reference":"Condition/example"},"performer":{"reference":"Practitioner/example"},"basis":[{"reference":"DiagnosticReport/example"},{"reference":"Observation/example"}],"prediction":[{"outcome":{"text":"Breast Cancer"},"probabilityDecimal":0.000368,"whenRange":{"low":{"value":54,"unit":"years","system":"http://unitsofmeasure.org","code":"a"},"high":{"value":57,"unit":"years","system":"http://unitsofmeasure.org","code":"a"}}}],"note":[{"text":"This risk assessment is for reference only"}]}